#Velocity(km/s)	Temperature(K)
332.650	-0.246
331.698	-0.142
330.745	-0.072
329.793	-0.033
328.840	-0.076
327.887	-0.078
326.935	-0.093
325.982	0.114
325.030	-0.084
324.077	-0.114
323.125	0.140
322.172	0.160
321.220	-0.052
320.267	0.016
319.315	-0.052
318.362	0.127
317.410	-0.038
316.457	0.131
315.505	0.071
314.552	-0.030
313.600	0.018
312.647	0.061
311.695	0.095
310.742	0.016
309.790	0.131
308.837	0.056
307.885	-0.022
306.932	0.070
305.980	0.039
305.027	0.139
304.075	0.078
303.122	0.053
302.169	-0.010
301.217	-0.078
300.264	0.069
299.312	0.142
298.359	-0.004
297.407	0.007
296.454	0.137
295.502	-0.012
294.549	0.012
293.597	0.103
292.644	0.071
291.692	-0.062
290.739	0.134
289.787	0.087
288.834	-0.057
287.882	-0.185
286.929	0.067
285.977	0.135
285.024	-0.060
284.072	-0.058
283.119	0.055
282.167	0.101
281.214	-0.032
280.262	0.140
279.309	0.041
278.357	-0.013
277.404	-0.045
276.451	-0.021
275.499	-0.027
274.546	-0.052
273.594	0.006
272.641	-0.091
271.689	0.056
270.736	-0.000
269.784	0.014
268.831	-0.013
267.879	-0.011
266.926	-0.042
265.974	-0.005
265.021	-0.023
264.069	-0.002
263.116	0.063
262.164	-0.005
261.211	-0.041
260.259	-0.047
259.306	0.021
258.354	-0.114
257.401	-0.201
256.449	-0.130
255.496	-0.203
254.544	-0.080
253.591	-0.036
252.639	-0.122
251.686	0.001
250.733	-0.144
249.781	-0.019
248.828	-0.101
247.876	-0.044
246.923	-0.124
245.971	0.028
245.018	-0.107
244.066	-0.172
243.113	-0.031
242.161	-0.031
241.208	-0.068
240.256	-0.114
239.303	-0.024
238.351	-0.116
237.398	-0.031
236.446	-0.088
235.493	-0.021
234.541	-0.014
233.588	0.117
232.636	0.004
231.683	0.062
230.731	-0.072
229.778	-0.009
228.826	-0.104
227.873	0.041
226.921	0.002
225.968	0.082
225.015	0.044
224.063	0.141
223.110	-0.039
222.158	-0.039
221.205	-0.010
220.253	-0.024
219.300	0.038
218.348	-0.046
217.395	0.074
216.443	-0.004
215.490	0.034
214.538	0.066
213.585	0.127
212.633	-0.050
211.680	0.111
210.728	0.071
209.775	0.056
208.823	-0.098
207.870	0.034
206.918	0.172
205.965	0.067
205.013	0.095
204.060	-0.024
203.108	0.032
202.155	-0.086
201.203	0.033
200.250	0.093
199.297	-0.022
198.345	0.081
197.392	0.051
196.440	-0.058
195.487	-0.038
194.535	-0.033
193.582	-0.053
192.630	0.028
191.677	0.020
190.725	-0.010
189.772	-0.244
188.820	0.021
187.867	-0.029
186.915	-0.106
185.962	0.093
185.010	0.060
184.057	0.096
183.105	-0.101
182.152	-0.087
181.200	0.039
180.247	-0.038
179.295	0.000
178.342	0.087
177.390	-0.015
176.437	-0.068
175.485	-0.172
174.532	0.082
173.579	0.055
172.627	-0.160
171.674	0.088
170.722	0.104
169.769	0.130
168.817	-0.041
167.864	0.013
166.912	0.202
165.959	-0.002
165.007	0.045
164.054	-0.152
163.102	-0.141
162.149	-0.140
161.197	-0.022
160.244	0.034
159.292	0.060
158.339	0.039
157.387	-0.111
156.434	0.091
155.482	0.023
154.529	-0.018
153.577	-0.016
152.624	0.039
151.672	-0.088
150.719	0.120
149.767	0.167
148.814	0.009
147.861	0.043
146.909	0.058
145.956	0.063
145.004	0.008
144.051	0.103
143.099	0.168
142.146	0.112
141.194	0.067
140.241	-0.045
139.289	0.157
138.336	0.137
137.384	0.060
136.431	-0.012
135.479	0.223
134.526	-0.068
133.574	0.162
132.621	0.005
131.669	0.030
130.716	0.097
129.764	0.045
128.811	0.102
127.859	0.000
126.906	0.152
125.954	0.067
125.001	0.007
124.049	0.027
123.096	-0.117
122.143	0.231
121.191	0.037
120.238	0.095
119.286	0.151
118.333	0.033
117.381	0.045
116.428	-0.045
115.476	-0.007
114.523	0.054
113.571	0.017
112.618	0.026
111.666	0.067
110.713	0.028
109.761	0.060
108.808	0.112
107.856	-0.059
106.903	0.115
105.951	-0.102
104.998	0.013
104.046	0.105
103.093	0.100
102.141	0.013
101.188	0.086
100.236	-0.039
99.283	-0.037
98.331	-0.060
97.378	-0.073
96.425	-0.120
95.473	-0.067
94.520	-0.019
93.568	-0.138
92.615	0.098
91.663	-0.036
90.710	-0.067
89.758	-0.029
88.805	-0.096
87.853	-0.139
86.900	-0.047
85.948	0.013
84.995	-0.014
84.043	-0.074
83.090	-0.041
82.138	-0.119
81.185	-0.075
80.233	-0.133
79.280	-0.244
78.328	-0.216
77.375	-0.110
76.423	-0.286
75.470	-0.148
74.518	-0.089
73.565	-0.073
72.613	0.047
71.660	-0.108
70.707	0.027
69.755	-0.169
68.802	0.039
67.850	-0.130
66.897	-0.094
65.945	-0.074
64.992	-0.007
64.040	-0.062
63.087	-0.026
62.135	-0.006
61.182	-0.011
60.230	-0.198
59.277	-0.088
58.325	-0.055
57.372	-0.085
56.420	-0.009
55.467	0.064
54.515	-0.015
53.562	0.056
52.610	-0.003
51.657	-0.044
50.705	-0.115
49.752	-0.064
48.800	-0.080
47.847	-0.075
46.895	-0.047
45.942	-0.003
44.989	-0.048
44.037	-0.042
43.084	-0.016
42.132	-0.061
41.179	0.058
40.227	-0.107
39.274	-0.006
38.322	-0.040
37.369	0.008
36.417	0.027
35.464	0.018
34.512	0.097
33.559	0.077
32.607	0.059
31.654	0.198
30.702	0.135
29.749	0.177
28.797	0.066
27.844	0.164
26.892	0.391
25.939	0.537
24.987	0.655
24.034	0.733
23.082	0.793
22.129	1.028
21.177	1.102
20.224	1.089
19.271	1.058
18.319	1.145
17.366	1.188
16.414	1.203
15.461	1.262
14.509	1.299
13.556	1.430
12.604	1.460
11.651	1.424
10.699	1.370
9.746	1.398
8.794	1.376
7.841	1.588
6.889	1.616
5.936	1.516
4.984	1.414
4.031	1.435
3.079	1.443
2.126	1.402
1.174	1.431
0.221	1.224
-0.731	1.114
-1.684	1.018
-2.636	1.092
-3.589	1.115
-4.541	0.923
-5.494	0.870
-6.447	0.693
-7.399	0.795
-8.352	0.478
-9.304	0.426
-10.257	0.049
-11.209	0.168
-12.162	-0.057
-13.114	0.069
-14.067	0.129
-15.019	0.050
-15.972	0.063
-16.924	0.089
-17.877	0.117
-18.829	0.070
-19.782	0.120
-20.734	0.212
-21.687	0.142
-22.639	-0.017
-23.592	0.018
-24.544	0.028
-25.497	0.049
-26.449	0.024
-27.402	0.145
-28.354	0.067
-29.307	-0.020
-30.259	0.009
-31.212	0.065
-32.165	-0.022
-33.117	-0.034
-34.070	0.065
-35.022	-0.009
-35.975	0.087
-36.927	0.093
-37.880	0.151
-38.832	0.097
-39.785	0.097
-40.737	0.092
-41.690	0.137
-42.642	0.106
-43.595	-0.040
-44.547	0.070
-45.500	-0.083
-46.452	-0.095
-47.405	-0.122
-48.357	0.124
-49.310	0.084
-50.262	0.061
-51.215	-0.038
-52.167	-0.046
-53.120	0.006
-54.072	0.045
-55.025	0.045
-55.977	-0.036
-56.930	0.043
-57.883	0.075
-58.835	-0.036
-59.788	0.203
-60.740	0.144
-61.693	0.116
-62.645	0.035
-63.598	-0.071
-64.550	-0.042
-65.503	0.062
-66.455	-0.033
-67.408	0.119
-68.360	0.046
-69.313	0.020
-70.265	0.129
-71.218	0.010
-72.170	-0.003
-73.123	0.176
-74.075	0.054
-75.028	0.005
-75.980	-0.090
-76.933	-0.091
-77.885	0.003
-78.838	-0.161
-79.790	0.042
-80.743	0.040
-81.695	0.066
-82.648	0.040
-83.601	0.083
-84.553	-0.042
-85.506	0.096
-86.458	0.013
-87.411	0.026
-88.363	-0.006
-89.316	-0.013
-90.268	-0.023
-91.221	-0.174
-92.173	0.035
-93.126	0.046
-94.078	0.130
-95.031	0.094
-95.983	-0.129
-96.936	-0.157
-97.888	-0.010
-98.841	-0.087
-99.793	-0.102
-100.746	0.068
-101.698	0.010
-102.651	0.005
-103.603	-0.107
-104.556	-0.150
-105.508	-0.016
-106.461	-0.014
-107.414	0.053
-108.366	-0.010
-109.319	-0.071
-110.271	0.133
-111.224	0.020
-112.176	-0.002
-113.129	-0.065
-114.081	-0.030
-115.034	0.038
-115.986	-0.073
-116.939	-0.033
-117.891	-0.132
-118.844	-0.087
-119.796	0.002
-120.749	-0.006
-121.701	-0.112
-122.654	0.063
-123.606	0.010
-124.559	-0.061
-125.511	-0.144
-126.464	-0.053
-127.416	-0.153
-128.369	-0.134
-129.321	0.025
-130.274	-0.088
-131.226	0.029
-132.179	-0.112
-133.132	-0.099
-134.084	-0.115
-135.037	-0.153
-135.989	0.029
-136.942	-0.045
-137.894	-0.049
-138.847	-0.086
-139.799	-0.188
-140.752	-0.070
-141.704	-0.077
-142.657	-0.123
-143.609	0.013
-144.562	-0.095
-145.514	-0.044
-146.467	0.054
-147.419	0.034
-148.372	-0.158
-149.324	0.024
-150.277	-0.158
-151.229	0.072
-152.182	-0.083
-153.134	-0.061
-154.087	-0.011
-155.039	-0.003
-155.992	0.027
-156.944	-0.083
-157.897	-0.002
-158.850	-0.174
-159.802	0.059
-160.755	-0.035
-161.707	0.132
-162.660	-0.013
-163.612	-0.009
-164.565	-0.023
-165.517	0.071
-166.470	-0.124
-167.422	-0.000
-168.375	0.115
-169.327	-0.061
-170.280	0.045
-171.232	-0.033
-172.185	-0.031
-173.137	0.009
-174.090	0.087
-175.042	-0.142
-175.995	0.134
-176.947	-0.080
-177.900	-0.019
-178.852	-0.009
-179.805	-0.073
-180.757	-0.073
-181.710	0.019
-182.662	0.089
-183.615	-0.006
-184.568	-0.011
-185.520	0.158
-186.473	0.065
-187.425	0.012
-188.378	-0.053
-189.330	-0.121
-190.283	0.172
-191.235	0.143
-192.188	-0.029
-193.140	-0.010
-194.093	0.057
-195.045	0.102
-195.998	0.050
-196.950	0.130
-197.903	-0.001
-198.855	0.198
-199.808	0.070
-200.760	0.112
-201.713	-0.012
-202.665	0.145
-203.618	-0.027
-204.570	0.010
-205.523	0.143
-206.475	0.102
-207.428	0.079
-208.380	0.071
-209.333	-0.088
-210.286	0.023
-211.238	0.057
-212.191	0.006
-213.143	0.013
-214.096	0.065
-215.048	0.000
-216.001	0.040
-216.953	0.172
-217.906	0.160
-218.858	0.111
-219.811	0.023
-220.763	0.178
-221.716	0.152
-222.668	0.039
-223.621	-0.060
-224.573	-0.027
-225.526	0.078
-226.478	-0.123
-227.431	0.133
-228.383	-0.010
-229.336	0.082
-230.288	0.066
-231.241	-0.010
-232.193	-0.035
-233.146	-0.046
-234.098	-0.090
-235.051	-0.136
-236.004	-0.001
-236.956	-0.070
-237.909	-0.107
-238.861	-0.036
-239.814	-0.014
-240.766	0.009
-241.719	0.074
-242.671	0.128
-243.624	-0.121
-244.576	0.045
-245.529	-0.002
-246.481	0.046
-247.434	0.025
-248.386	-0.023
-249.339	-0.042
-250.291	-0.128
-251.244	0.049
-252.196	0.206
-253.149	-0.006
-254.101	-0.187
-255.054	-0.040
-256.006	-0.065
-256.959	-0.022
-257.911	-0.028
-258.864	0.028
-259.816	0.078
-260.769	-0.051
-261.722	-0.000
-262.674	-0.057
-263.627	-0.044
-264.579	-0.127
-265.532	-0.052
-266.484	-0.142
-267.437	-0.065
-268.389	-0.104
-269.342	-0.078
-270.294	-0.027
-271.247	-0.065
-272.199	-0.048
-273.152	-0.002
-274.104	-0.049
-275.057	-0.023
-276.009	-0.016
-276.962	0.062
-277.914	-0.065
-278.867	0.059
-279.819	-0.035
-280.772	-0.036
-281.724	-0.028
-282.677	0.030
-283.629	-0.071
-284.582	0.038
-285.534	0.046
-286.487	-0.076
-287.440	-0.195
-288.392	0.010
-289.345	0.088
-290.297	0.023
-291.250	0.031
-292.202	-0.013
-293.155	0.179
-294.107	-0.165
-295.060	0.018
-296.012	0.025
-296.965	0.088
-297.917	0.020
-298.870	0.062
-299.822	0.073
-300.775	-0.006
-301.727	-0.078
-302.680	0.029
-303.632	0.024
-304.585	0.010
-305.537	0.105
-306.490	0.150
-307.442	0.044
-308.395	-0.058
-309.347	-0.091
-310.300	0.090
-311.252	-0.004
-312.205	-0.050
-313.158	-0.043
-314.110	0.069
-315.063	0.019
-316.015	-0.078
